Folder: supporting-info/2025_cau11-acetone/AIF_adorption_information_files

File: cau11-acetone.aif
#adsorption/desorption data for CAU-11/acetone
data_cau-11acetone
_exptl_adsorptive Acetone
_exptl_temperature 298
_sample_material_id 'CAU-11'
_units_temperature K
_units_pressure Torr
_units_loading mmol/g

loop_
_adsorp_pressure
_adsorp_p0
_adsorp_amount
0.14 0.0006 0.929
0.24 0.0011 1.206
1.9 0.0083 1.656
2.32 0.0102 1.684
6.37 0.0279 1.804
12.12 0.053 1.877
16.57 0.0725 1.913
23.83 0.1043 1.956
28.17 0.1232 1.979
34.71 0.1519 2.006
38.53 0.1686 2.021
45.9 0.2009 2.046
51.55 0.2256 2.065
58.6 0.2564 2.086
60.84 0.2662 2.093
69.23 0.3029 2.117
75.22 0.3291 2.134
81.28 0.3557 2.151
83.74 0.3664 2.159
92.6 0.4052 2.184
101.19 0.4427 2.208
110.17 0.4821 2.235
114.18 0.4996 2.247
121.54 0.5318 2.271
131.73 0.5764 2.305
141.78 0.6204 2.34
151.31 0.6621 2.382
159.78 0.6991 2.424
166.1 0.7268 2.46
175.37 0.7673 2.518
182.2 0.7972 2.568
194.38 0.8505 2.693
208.86 0.9139 3.067
217.27 0.9507 3.961
222.82 0.975 6.157
224.45 0.9821 7.081
loop_
_desorp_pressure
_desorp_p0
_desorp_amount
220.9 0.9666 6.039
218.38 0.9556 5.078
214.34 0.9379 3.87
207.81 0.9093 3.198
192.61 0.8428 2.79
184.37 0.8067 2.703
174.73 0.7646 2.633
170.86 0.7476 2.61
164.87 0.7214 2.58
160.01 0.7002 2.558
153.84 0.6732 2.533
147.54 0.6456 2.51
141.31 0.6183 2.489
136.21 0.596 2.474
130.05 0.569 2.456
124.1 0.543 2.438
118.04 0.5165 2.419
112.42 0.4919 2.403
105.43 0.4613 2.385
99.42 0.435 2.37
93.36 0.4085 2.354
88.19 0.3859 2.341
82.26 0.3599 2.325
76.88 0.3364 2.311
70.55 0.3087 2.295
65.4 0.2861 2.281
58.76 0.2571 2.262
53.47 0.2339 2.247
47.52 0.2079 2.229
42.56 0.1862 2.212
36.67 0.1605 2.191
31.81 0.1392 2.172
26.29 0.115 2.148
21.67 0.0948 2.125
15.13 0.0662 2.083
11.1 0.0486 2.048
5.5 0.024 1.969
2.25 0.0098 1.864
1.18 0.0052 1.784
0.21 0.0009 1.514

File: cau11-water.aif
#adsorption/desorption data for CAU-11/water
data_cau-11water
_exptl_adsorptive Water
_exptl_temperature 298
_sample_material_id 'CAU-11'
_units_temperature K
_units_pressure Torr
_units_loading mmol/g

loop_
_adsorp_pressure
_adsorp_p0
_adsorp_amount
0.16 0.0069 0.04
0.27 0.0115 0.054
1.16 0.0497 0.114
2.6 0.1115 0.174
4.82 0.2065 0.258
7.39 0.3164 0.362
9.64 0.413 0.469
9.75 0.4175 0.476
10.6 0.4539 0.518
10.86 0.4649 0.533
11.63 0.498 0.575
12.04 0.5157 0.6
13.23 0.5665 0.678
13.98 0.5987 0.731
14.32 0.613 0.758
14.97 0.641 0.812
15.93 0.682 0.904
16.19 0.6933 0.934
16.64 0.7124 0.987
17.43 0.7464 1.096
17.94 0.768 1.181
18.69 0.8003 1.341
19.77 0.8465 1.691
20.87 0.8938 2.507
21.36 0.9147 3.65
21.58 0.9242 4.607
21.87 0.9365 5.594
22.03 0.9432 5.972
22.39 0.9588 6.845
22.8 0.9762 8.233
loop_
_desorp_pressure
_desorp_p0
_desorp_amount
222.92 0.9816 8.863
22.36 0.9576 8.659
21.93 0.9388 7.968
21.65 0.9272 7.234
21.35 0.9141 6.524
21.2 0.9079 6.173
20.93 0.896 5.477
20.75 0.8886 4.752
20.63 0.8835 4.015
20.45 0.8758 3.293
20.03 0.8575 2.568
18.99 0.8134 1.868
18.91 0.8098 1.82
17.43 0.7461 1.394
16.57 0.7097 1.239
14.52 0.6219 0.994
14.24 0.6097 0.967
12.97 0.5555 0.869
12.35 0.529 0.826
11.77 0.5042 0.787
10.64 0.4557 0.721
9.7 0.4154 0.671
9.33 0.3996 0.649
8.29 0.3548 0.582
6.8 0.2913 0.49
5.49 0.2351 0.431
4.25 0.1818 0.379
3.58 0.1532 0.352
2.25 0.0964 0.302